{
    "resourceType": "Bundle",
    "id": "DHIR",
    "meta": {
        "versionId": "1.1.5",
        "lastUpdated": "2021-06-21T15:43:54.271-05:00"
    },
    "type": "collection",
    "entry": [
        {
            "resource": {
                "resourceType": "Immunization",
                "id": "Immunization01",
                "meta":{
                    "lastUpdated":"2021-06-20T15:43:54.271-05:00"
                },
                "extension": [
                    {
                        "url": "[base-structure]/ca-on-immunizations-extension-public-health-unit",
                        "valueString": "Toronto PHU"
                    }
                ],
                "status": "completed",
                "vaccineCode": {
                    "coding": [
                        {
                            "system": "http://snomed.info/sct",
                            "code": "28581000087106",
                            "display": "PFIZER-BIONTECH COVID-19 VACCINE messenger ribonucleic acid 30 micrograms per 0.3 milliliter suspension"
                        }
                    ]
                },
                "patient": {
                    "reference": "Patient/Patient1234"
                },
                "occurrenceDateTime": "2021-05-14T10:22:00-05:00",
                "primarySource": true,
                "lotNumber": "AZ45402",
                "performer": [
                    {
                        "function": {
                            "coding": [
                                {
                                    "system": "http://terminology.hl7.org/CodeSystem/v2-0443",
                                    "code": "AP",
                                    "display": "Administering Provider"
                                }
                            ]
                        },
                        "actor": {
                            "reference": "Practitioner/Practitioner1234"
                        }
                    }]
            }
        },
        {
            "resource":    {
                "resourceType": "Patient",
                "id": "Patient1234",
                "identifier": [
                    {
                        "system": "[id-system-local-base]/ca-on-panorama-immunization-id",
                        "value": "95ZWBKWTC5"
                    },
                    {
                        "system": "[id-system-global-base]/ca-on-patient-hcn",
                        "value": "9393881587"
                    }
                ],
                "name": [
                    {
                        "family": "Boyer",
                        "given": [
                            "Cary",
                            "b"
                        ]
                    }
                ],
                "gender": "male",
                "birthDate": "1971-02-13"
            }
        },
        {
            "resource":    {
                "resourceType": "Practitioner",
                "id": "Practitioner1234",
                "name": [
                    {
                        "family": "Nurse",
                        "given": [
                            "Best"
                        ]
                    }
                ],
                "qualification": [
                    {
                        "code": {
                            "coding": [
                                {
                                    "system": "[code-system-local-base]/ca-on-immunizations-practitionerdesignation",
                                    "code": "RN",
                                    "display": "Registered Nurse"
                                }
                            ]
                        }
                    }
                ]
            }
        } 
    ]
}
