{
    "resourceType": "Bundle",
    "entry": [
        {
            "resource":{
                "resourceType": "Immunization",
                "id": "Immunization01",
                "status": "completed",
                "vaccineCode": {
                    "coding": [
                        {
                            "system": "http://snomed.info/sct",
                            "code": "61153008",
                            "display": "MMR"
                        },
                        {
                            "system": "http://snomed.info/sct",
                            "code": "7171000087106",
                            "display": "MMR Priorix GSK"
                        }
                    ]
                },
                "patient": {
                    "reference": "Patient/Patient1234"
                },
                "occurrenceDateTime": "2016-02-14T10:22:00-05:00",
                "primarySource": true,
                "lotNumber": "Some Lot",
                "performer": [
                    {
                        "function": {
                            "coding": [
                                {
                                    "system": "http://terminology.hl7.org/CodeSystem/v2-0443",
                                    "code": "AP",
                                    "display": "Administering Provider"
                                }
                            ]
                        },
                        "actor": {
                            "reference": "Practitioner/Practitioner1234"
                        }
                    }]
            }
        },
        {
            "resource":{
                "resourceType": "Patient",
                "id": "Patient1234",
                "identifier": [
                    {
                        "system": "[id-system-local-base]/ca-on-panorama-immunization-id",
                        "value": "95ZWBKWTC5"
                    },
                    {
                        "system": "[id-system-global-base]/ca-on-patient-hcn",
                        "value": "9393881587"
                    }
                ],
                "name": [
                    {
                        "family": "Doe",
                        "given": [
                            "John",
                            "W."
                        ]
                    }
                ],
                "gender": "male",
                "birthDate": "2012-02-14"
            }
        },
        {
            "resource":{
                "resourceType": "Practitioner",
                "id": "Practitioner1234",
                "name": [
                    {
                        "family": "Nurse",
                        "given": [
                            "Best"
                        ]
                    }
                ],
                "qualification": [
                    {
                        "code": {
                            "coding": [
                                {
                                    "system": "[code-system-local-base]/ca-on-immunizations-practitionerdesignation",
                                    "code": "RN",
                                    "display": "Registered Nurse"
                                }
                            ]
                        }
                    }
                ]
            }
        },
        {
            "resource":{
                "resourceType": "ImmunizationRecommendation",
                "id": "ImmunizationRecommendation01",
                "patient": {
                    "reference": "Patient/Patient1234"
                },
                "date": "2016-07-28T11:04:15.817-05:00",
                "recommendation": [
                    {
                        "targetDisease": {
                            "coding": [
                                {
                                    "system": "http://snomed.info/sct",
                                    "code": "36989005",
                                    "display": "Mumps"
                                }
                            ]
                        },
                        "forecastStatus": {
                            "coding": [
                                {
                                    "system": " http://snomed.info/sct",
                                    "code": "8191000087109",
                                    "display": "Overdue"
                                }
                            ]
                        },
                        "dateCriterion": [
                            {
                                "code": {
                                    "coding": [
                                        {
                                            "system": " http://loinc.org ",
                                            "code": "30980-7",
                                            "display": "Date vaccine due"
                                        }
                                    ]
                                },
                                "value": "2016-06-01"
                            }
                        ]
                    },
                    {
                        "targetDisease": {
                            "coding": [
                                {
                                    "system": "http://snomed.info/sct",
                                    "code": "14189004",
                                    "display": "Measles"
                                }
                            ]
                        },
                        "forecastStatus": {
                            "coding": [
                                {
                                    "system": "http://snomed.info/sct",
                                    "code": "8191000087109",
                                    "display": "Overdue"
                                }
                            ]
                        },
                        "dateCriterion": [
                            {
                                "code": {
                                    "coding": [
                                        {
                                            "system": " http://loinc.org ",
                                            "code": "30980-7",
                                            "display": "Date vaccine due"
                                        }
                                    ]
                                },
                                "value": "2016-06-01"
                            }
                        ]
                    }
                ]
            }
        }
    ]
}

